{
  "participantId": "P1763198729329",
  "condition": "C2",
  "timestamp": "2025-11-15T09:27:00.860Z",
  "questionnaire": {
    "age": 19,
    "gender": "F",
    "musicHabit": 1,
    "fatigue": 8,
    "stress": 8,
    "isHabitue": false,
    "condition": "C2",
    "timestamp": "2025-11-15T09:25:29.444Z"
  },
  "pvtBlock1": [
    {
      "trial": 1,
      "rt": 232.89770318428572,
      "timestamp": "2025-11-15T09:26:39.182Z"
    },
    {
      "trial": 2,
      "rt": 218.75563197546893,
      "timestamp": "2025-11-15T09:26:39.182Z"
    },
    {
      "trial": 3,
      "rt": 203.49320381541116,
      "timestamp": "2025-11-15T09:26:39.182Z"
    },
    {
      "trial": 4,
      "rt": 201.45519056084785,
      "timestamp": "2025-11-15T09:26:39.182Z"
    },
    {
      "trial": 5,
      "rt": 311.4506255174491,
      "timestamp": "2025-11-15T09:26:39.182Z"
    },
    {
      "trial": 6,
      "rt": 386.20237420739886,
      "timestamp": "2025-11-15T09:26:39.182Z"
    },
    {
      "trial": 7,
      "rt": 470.30369592900104,
      "timestamp": "2025-11-15T09:26:39.182Z"
    },
    {
      "trial": 8,
      "rt": 423.09433604734966,
      "timestamp": "2025-11-15T09:26:39.182Z"
    },
    {
      "trial": 9,
      "rt": 354.185671461251,
      "timestamp": "2025-11-15T09:26:39.182Z"
    },
    {
      "trial": 10,
      "rt": 228.8908653078054,
      "timestamp": "2025-11-15T09:26:39.182Z"
    }
  ],
  "pvtBlock2": [
    {
      "trial": 6,
      "rt": 5239.699999928474,
      "timestamp": "2025-11-15T09:26:47.411Z"
    },
    {
      "trial": 7,
      "rt": 1645.7999999523163,
      "timestamp": "2025-11-15T09:26:59.039Z"
    }
  ],
  "categorization1": [
    {
      "trial": 1,
      "image": "image-37.webp",
      "response": "interieur",
      "rt": 2735.600000023842,
      "timestamp": "2025-11-15T09:25:37.336Z"
    },
    {
      "trial": 2,
      "image": "image-25.webp",
      "response": "interieur",
      "rt": 1941.3999999761581,
      "timestamp": "2025-11-15T09:25:39.281Z"
    },
    {
      "trial": 3,
      "image": "image-26.webp",
      "response": "exterieur",
      "rt": 875.3999999761581,
      "timestamp": "2025-11-15T09:25:40.159Z"
    },
    {
      "trial": 4,
      "image": "image-17.webp",
      "response": "exterieur",
      "rt": 810.8999999761581,
      "timestamp": "2025-11-15T09:25:40.971Z"
    },
    {
      "trial": 5,
      "image": "image-35.webp",
      "response": "exterieur",
      "rt": 957.8999999761581,
      "timestamp": "2025-11-15T09:25:41.932Z"
    },
    {
      "trial": 6,
      "image": "image-15.webp",
      "response": "interieur",
      "rt": 1566.1000000238419,
      "timestamp": "2025-11-15T09:25:43.501Z"
    },
    {
      "trial": 7,
      "image": "image-23.webp",
      "response": "exterieur",
      "rt": 1060.3999999761581,
      "timestamp": "2025-11-15T09:25:44.564Z"
    },
    {
      "trial": 8,
      "image": "image-33.webp",
      "response": "interieur",
      "rt": 2040.1000000238419,
      "timestamp": "2025-11-15T09:25:46.607Z"
    },
    {
      "trial": 9,
      "image": "image-02.webp",
      "response": "exterieur",
      "rt": 1355.2000000476837,
      "timestamp": "2025-11-15T09:25:47.965Z"
    },
    {
      "trial": 10,
      "image": "image-18.webp",
      "response": "interieur",
      "rt": 977.2999999523163,
      "timestamp": "2025-11-15T09:25:48.945Z"
    },
    {
      "trial": 11,
      "image": "image-38.webp",
      "response": "interieur",
      "rt": 1016.5,
      "timestamp": "2025-11-15T09:25:49.963Z"
    },
    {
      "trial": 12,
      "image": "image-08.webp",
      "response": "interieur",
      "rt": 2112.899999976158,
      "timestamp": "2025-11-15T09:25:52.078Z"
    },
    {
      "trial": 13,
      "image": "image-24.webp",
      "response": "exterieur",
      "rt": 809.6999999284744,
      "timestamp": "2025-11-15T09:25:52.890Z"
    },
    {
      "trial": 14,
      "image": "image-21.webp",
      "response": "exterieur",
      "rt": 763.5,
      "timestamp": "2025-11-15T09:25:53.656Z"
    },
    {
      "trial": 15,
      "image": "image-03.webp",
      "response": "interieur",
      "rt": 1725.8999999761581,
      "timestamp": "2025-11-15T09:25:55.384Z"
    },
    {
      "trial": 16,
      "image": "image-32.webp",
      "response": "interieur",
      "rt": 1852.3999999761581,
      "timestamp": "2025-11-15T09:25:57.239Z"
    },
    {
      "trial": 17,
      "image": "image-16.webp",
      "response": "exterieur",
      "rt": 1140.1999999284744,
      "timestamp": "2025-11-15T09:25:58.382Z"
    },
    {
      "trial": 18,
      "image": "image-22.webp",
      "response": "interieur",
      "rt": 3251.399999976158,
      "timestamp": "2025-11-15T09:26:01.636Z"
    },
    {
      "trial": 19,
      "image": "image-07.webp",
      "response": "interieur",
      "rt": 956.5,
      "timestamp": "2025-11-15T09:26:02.595Z"
    },
    {
      "trial": 20,
      "image": "image-41.webp",
      "response": "interieur",
      "rt": 746.6999999284744,
      "timestamp": "2025-11-15T09:26:03.344Z"
    },
    {
      "trial": 21,
      "image": "image-29.webp",
      "response": "interieur",
      "rt": 824.0999999046326,
      "timestamp": "2025-11-15T09:26:04.171Z"
    }
  ],
  "categorization2": [
    {
      "trial": 1,
      "image": "image-42.webp",
      "response": "interieur",
      "rt": 768.8999999761581,
      "timestamp": "2025-11-15T09:26:54.856Z"
    },
    {
      "trial": 2,
      "image": "image-39.webp",
      "response": "interieur",
      "rt": 118.29999995231628,
      "timestamp": "2025-11-15T09:26:54.975Z"
    },
    {
      "trial": 3,
      "image": "image-12.webp",
      "response": "interieur",
      "rt": 134.70000004768372,
      "timestamp": "2025-11-15T09:26:55.112Z"
    },
    {
      "trial": 4,
      "image": "image-01.webp",
      "response": "interieur",
      "rt": 147.60000002384186,
      "timestamp": "2025-11-15T09:26:55.260Z"
    },
    {
      "trial": 5,
      "image": "image-10.webp",
      "response": "interieur",
      "rt": 153.09999990463257,
      "timestamp": "2025-11-15T09:26:55.415Z"
    },
    {
      "trial": 6,
      "image": "image-30.webp",
      "response": "interieur",
      "rt": 150.60000002384186,
      "timestamp": "2025-11-15T09:26:55.567Z"
    },
    {
      "trial": 7,
      "image": "image-14.webp",
      "response": "interieur",
      "rt": 158.40000009536743,
      "timestamp": "2025-11-15T09:26:55.726Z"
    },
    {
      "trial": 8,
      "image": "image-19.webp",
      "response": "interieur",
      "rt": 151.09999990463257,
      "timestamp": "2025-11-15T09:26:55.879Z"
    },
    {
      "trial": 9,
      "image": "image-27.webp",
      "response": "interieur",
      "rt": 149.29999995231628,
      "timestamp": "2025-11-15T09:26:56.030Z"
    },
    {
      "trial": 10,
      "image": "image-34.webp",
      "response": "interieur",
      "rt": 147.89999997615814,
      "timestamp": "2025-11-15T09:26:56.179Z"
    },
    {
      "trial": 11,
      "image": "image-13.webp",
      "response": "interieur",
      "rt": 128.89999997615814,
      "timestamp": "2025-11-15T09:26:56.309Z"
    },
    {
      "trial": 12,
      "image": "image-28.webp",
      "response": "interieur",
      "rt": 148.70000004768372,
      "timestamp": "2025-11-15T09:26:56.459Z"
    },
    {
      "trial": 13,
      "image": "image-09.webp",
      "response": "interieur",
      "rt": 138,
      "timestamp": "2025-11-15T09:26:56.600Z"
    },
    {
      "trial": 14,
      "image": "image-31.webp",
      "response": "interieur",
      "rt": 157.40000009536743,
      "timestamp": "2025-11-15T09:26:56.759Z"
    },
    {
      "trial": 15,
      "image": "image-40.webp",
      "response": "interieur",
      "rt": 145.70000004768372,
      "timestamp": "2025-11-15T09:26:56.907Z"
    },
    {
      "trial": 16,
      "image": "image-20.webp",
      "response": "interieur",
      "rt": 162.5,
      "timestamp": "2025-11-15T09:26:57.070Z"
    },
    {
      "trial": 17,
      "image": "image-11.webp",
      "response": "interieur",
      "rt": 137.29999995231628,
      "timestamp": "2025-11-15T09:26:57.209Z"
    },
    {
      "trial": 18,
      "image": "image-36.webp",
      "response": "interieur",
      "rt": 148.09999990463257,
      "timestamp": "2025-11-15T09:26:57.359Z"
    },
    {
      "trial": 19,
      "image": "image-06.webp",
      "response": "interieur",
      "rt": 160.40000009536743,
      "timestamp": "2025-11-15T09:26:57.520Z"
    },
    {
      "trial": 20,
      "image": "image-04.webp",
      "response": "interieur",
      "rt": 154.10000002384186,
      "timestamp": "2025-11-15T09:26:57.677Z"
    },
    {
      "trial": 21,
      "image": "image-05.webp",
      "response": "interieur",
      "rt": 161.80000007152557,
      "timestamp": "2025-11-15T09:26:57.840Z"
    }
  ]
}