{
  "participantId": "P1762967696150",
  "condition": "C2",
  "timestamp": "2025-11-12T17:25:23.624Z",
  "questionnaire": {
    "age": 18,
    "gender": "H",
    "musicHabit": 5,
    "fatigue": 5,
    "stress": 5,
    "isHabitue": false,
    "condition": "C2",
    "timestamp": "2025-11-12T17:14:56.151Z"
  },
  "pvtBlock1": [
    {
      "trial": 1,
      "rt": 287.3000000715256,
      "timestamp": "2025-11-12T17:15:19.479Z"
    },
    {
      "trial": 2,
      "rt": 240.79999995231628,
      "timestamp": "2025-11-12T17:15:29.324Z"
    },
    {
      "trial": 3,
      "rt": 307.39999997615814,
      "timestamp": "2025-11-12T17:15:35.045Z"
    },
    {
      "trial": 4,
      "rt": 273,
      "timestamp": "2025-11-12T17:15:39.402Z"
    },
    {
      "trial": 5,
      "rt": 13.100000023841858,
      "timestamp": "2025-11-12T17:15:43.763Z"
    },
    {
      "trial": 6,
      "rt": 194.60000002384186,
      "timestamp": "2025-11-12T17:15:49.835Z"
    },
    {
      "trial": 7,
      "rt": 269.6999999284744,
      "timestamp": "2025-11-12T17:15:58.787Z"
    },
    {
      "trial": 8,
      "rt": 245.10000002384186,
      "timestamp": "2025-11-12T17:16:04.465Z"
    },
    {
      "trial": 9,
      "rt": 329.1999999284744,
      "timestamp": "2025-11-12T17:16:08.746Z"
    },
    {
      "trial": 10,
      "rt": 255.70000004768372,
      "timestamp": "2025-11-12T17:16:13.530Z"
    },
    {
      "trial": 11,
      "rt": 267.10000002384186,
      "timestamp": "2025-11-12T17:16:17.752Z"
    },
    {
      "trial": 12,
      "rt": 313.60000002384186,
      "timestamp": "2025-11-12T17:16:23.663Z"
    },
    {
      "trial": 13,
      "rt": 287.3000000715256,
      "timestamp": "2025-11-12T17:16:27.389Z"
    },
    {
      "trial": 14,
      "rt": 278.10000002384186,
      "timestamp": "2025-11-12T17:16:35.795Z"
    },
    {
      "trial": 15,
      "rt": 284.2999999523163,
      "timestamp": "2025-11-12T17:16:42.615Z"
    },
    {
      "trial": 16,
      "rt": 547.3999999761581,
      "timestamp": "2025-11-12T17:16:47.087Z"
    },
    {
      "trial": 17,
      "rt": 253.89999997615814,
      "timestamp": "2025-11-12T17:16:53.417Z"
    },
    {
      "trial": 18,
      "rt": 347.6999999284744,
      "timestamp": "2025-11-12T17:16:58.040Z"
    },
    {
      "trial": 19,
      "rt": 291.7000000476837,
      "timestamp": "2025-11-12T17:17:06.160Z"
    },
    {
      "trial": 20,
      "rt": 352.39999997615814,
      "timestamp": "2025-11-12T17:17:09.054Z"
    },
    {
      "trial": 21,
      "rt": 249.59999990463257,
      "timestamp": "2025-11-12T17:17:17.415Z"
    },
    {
      "trial": 22,
      "rt": 312.60000002384186,
      "timestamp": "2025-11-12T17:17:25.751Z"
    },
    {
      "trial": 23,
      "rt": 367.3000000715256,
      "timestamp": "2025-11-12T17:17:28.918Z"
    },
    {
      "trial": 24,
      "rt": 310.8000000715256,
      "timestamp": "2025-11-12T17:17:31.781Z"
    },
    {
      "trial": 25,
      "rt": 247.20000004768372,
      "timestamp": "2025-11-12T17:17:41.398Z"
    },
    {
      "trial": 26,
      "rt": 308.10000002384186,
      "timestamp": "2025-11-12T17:17:48.055Z"
    },
    {
      "trial": 27,
      "rt": 303.2999999523163,
      "timestamp": "2025-11-12T17:17:52.830Z"
    },
    {
      "trial": 28,
      "rt": 247,
      "timestamp": "2025-11-12T17:17:57.685Z"
    },
    {
      "trial": 29,
      "rt": 332.7999999523163,
      "timestamp": "2025-11-12T17:18:00.769Z"
    },
    {
      "trial": 30,
      "rt": 279.1999999284744,
      "timestamp": "2025-11-12T17:18:04.299Z"
    },
    {
      "trial": 31,
      "rt": 577.5,
      "timestamp": "2025-11-12T17:18:09.621Z"
    },
    {
      "trial": 32,
      "rt": 318.7000000476837,
      "timestamp": "2025-11-12T17:18:16.173Z"
    },
    {
      "trial": 33,
      "rt": 268.7999999523163,
      "timestamp": "2025-11-12T17:18:20.659Z"
    },
    {
      "trial": 34,
      "rt": 260.5,
      "timestamp": "2025-11-12T17:18:30.119Z"
    },
    {
      "trial": 35,
      "rt": 233.60000002384186,
      "timestamp": "2025-11-12T17:18:39.936Z"
    },
    {
      "trial": 36,
      "rt": 539.5,
      "timestamp": "2025-11-12T17:18:42.489Z"
    },
    {
      "trial": 37,
      "rt": 287.60000002384186,
      "timestamp": "2025-11-12T17:18:50.012Z"
    },
    {
      "trial": 38,
      "rt": 237.5,
      "timestamp": "2025-11-12T17:18:58.005Z"
    },
    {
      "trial": 39,
      "rt": 269,
      "timestamp": "2025-11-12T17:19:05.435Z"
    },
    {
      "trial": 40,
      "rt": 267.40000009536743,
      "timestamp": "2025-11-12T17:19:14.761Z"
    },
    {
      "trial": 41,
      "rt": 306.59999990463257,
      "timestamp": "2025-11-12T17:19:17.554Z"
    },
    {
      "trial": 42,
      "rt": 269.2999999523163,
      "timestamp": "2025-11-12T17:19:25.648Z"
    },
    {
      "trial": 43,
      "rt": 317.59999990463257,
      "timestamp": "2025-11-12T17:19:28.934Z"
    },
    {
      "trial": 44,
      "rt": 310.60000002384186,
      "timestamp": "2025-11-12T17:19:33.179Z"
    },
    {
      "trial": 45,
      "rt": 263.10000002384186,
      "timestamp": "2025-11-12T17:19:42.398Z"
    },
    {
      "trial": 46,
      "rt": 262.60000002384186,
      "timestamp": "2025-11-12T17:19:49.774Z"
    },
    {
      "trial": 47,
      "rt": 294.89999997615814,
      "timestamp": "2025-11-12T17:19:59.842Z"
    },
    {
      "trial": 48,
      "rt": 354.5,
      "timestamp": "2025-11-12T17:20:04.558Z"
    },
    {
      "trial": 49,
      "rt": 250.29999995231628,
      "timestamp": "2025-11-12T17:20:12.220Z"
    }
  ],
  "pvtBlock2": [
    {
      "trial": 1,
      "rt": 35,
      "timestamp": "2025-11-12T17:20:30.578Z"
    },
    {
      "trial": 2,
      "rt": 32.699999928474426,
      "timestamp": "2025-11-12T17:20:40.119Z"
    },
    {
      "trial": 3,
      "rt": 3834.2000000476837,
      "timestamp": "2025-11-12T17:20:46.606Z"
    },
    {
      "trial": 4,
      "rt": 12.700000047683716,
      "timestamp": "2025-11-12T17:20:54.431Z"
    },
    {
      "trial": 5,
      "rt": 25.199999928474426,
      "timestamp": "2025-11-12T17:21:02.976Z"
    },
    {
      "trial": 6,
      "rt": 25.200000047683716,
      "timestamp": "2025-11-12T17:21:09.760Z"
    },
    {
      "trial": 7,
      "rt": 17.200000047683716,
      "timestamp": "2025-11-12T17:21:13.964Z"
    },
    {
      "trial": 8,
      "rt": 34.299999952316284,
      "timestamp": "2025-11-12T17:21:16.183Z"
    },
    {
      "trial": 9,
      "rt": 15.600000023841858,
      "timestamp": "2025-11-12T17:21:21.882Z"
    },
    {
      "trial": 10,
      "rt": 27.199999928474426,
      "timestamp": "2025-11-12T17:21:27.143Z"
    },
    {
      "trial": 11,
      "rt": 15.899999976158142,
      "timestamp": "2025-11-12T17:21:35.882Z"
    },
    {
      "trial": 12,
      "rt": 17.600000023841858,
      "timestamp": "2025-11-12T17:21:44.654Z"
    },
    {
      "trial": 13,
      "rt": 35.200000047683716,
      "timestamp": "2025-11-12T17:21:53.824Z"
    },
    {
      "trial": 14,
      "rt": 32.5,
      "timestamp": "2025-11-12T17:21:58.292Z"
    },
    {
      "trial": 15,
      "rt": 22.600000023841858,
      "timestamp": "2025-11-12T17:22:07.296Z"
    },
    {
      "trial": 16,
      "rt": 29.199999928474426,
      "timestamp": "2025-11-12T17:22:14.180Z"
    },
    {
      "trial": 17,
      "rt": 21.5,
      "timestamp": "2025-11-12T17:22:23.910Z"
    },
    {
      "trial": 18,
      "rt": 33,
      "timestamp": "2025-11-12T17:22:32.151Z"
    },
    {
      "trial": 19,
      "rt": 24.40000009536743,
      "timestamp": "2025-11-12T17:22:37.715Z"
    },
    {
      "trial": 20,
      "rt": 17.5,
      "timestamp": "2025-11-12T17:22:45.952Z"
    },
    {
      "trial": 21,
      "rt": 34,
      "timestamp": "2025-11-12T17:22:48.005Z"
    },
    {
      "trial": 22,
      "rt": 36.09999990463257,
      "timestamp": "2025-11-12T17:22:51.547Z"
    },
    {
      "trial": 23,
      "rt": 17.100000023841858,
      "timestamp": "2025-11-12T17:23:01.539Z"
    },
    {
      "trial": 24,
      "rt": 35.5,
      "timestamp": "2025-11-12T17:23:07.763Z"
    },
    {
      "trial": 25,
      "rt": 32.60000002384186,
      "timestamp": "2025-11-12T17:23:10.475Z"
    },
    {
      "trial": 26,
      "rt": 36.700000047683716,
      "timestamp": "2025-11-12T17:23:19.608Z"
    },
    {
      "trial": 27,
      "rt": 33.700000047683716,
      "timestamp": "2025-11-12T17:23:24.472Z"
    },
    {
      "trial": 28,
      "rt": 25.600000023841858,
      "timestamp": "2025-11-12T17:23:28.378Z"
    },
    {
      "trial": 29,
      "rt": 12.300000071525574,
      "timestamp": "2025-11-12T17:23:31.687Z"
    },
    {
      "trial": 30,
      "rt": 9.599999904632568,
      "timestamp": "2025-11-12T17:23:38.772Z"
    },
    {
      "trial": 31,
      "rt": 36.40000009536743,
      "timestamp": "2025-11-12T17:23:43.603Z"
    },
    {
      "trial": 32,
      "rt": 15.399999976158142,
      "timestamp": "2025-11-12T17:23:53.295Z"
    },
    {
      "trial": 33,
      "rt": 22.200000047683716,
      "timestamp": "2025-11-12T17:24:02.263Z"
    },
    {
      "trial": 34,
      "rt": 25.200000047683716,
      "timestamp": "2025-11-12T17:24:05.640Z"
    },
    {
      "trial": 35,
      "rt": 20.699999928474426,
      "timestamp": "2025-11-12T17:24:13.779Z"
    },
    {
      "trial": 36,
      "rt": 9.899999976158142,
      "timestamp": "2025-11-12T17:24:17.486Z"
    },
    {
      "trial": 37,
      "rt": 1099.1999999284744,
      "timestamp": "2025-11-12T17:24:28.561Z"
    },
    {
      "trial": 38,
      "rt": 33.90000009536743,
      "timestamp": "2025-11-12T17:24:37.649Z"
    },
    {
      "trial": 39,
      "rt": 12.799999952316284,
      "timestamp": "2025-11-12T17:24:46.191Z"
    },
    {
      "trial": 40,
      "rt": 47.299999952316284,
      "timestamp": "2025-11-12T17:24:53.406Z"
    },
    {
      "trial": 41,
      "rt": 638.5,
      "timestamp": "2025-11-12T17:25:01.017Z"
    },
    {
      "trial": 42,
      "rt": 376.8000000715256,
      "timestamp": "2025-11-12T17:25:05.627Z"
    },
    {
      "trial": 43,
      "rt": 135.20000004768372,
      "timestamp": "2025-11-12T17:25:13.276Z"
    },
    {
      "trial": 44,
      "rt": 38.200000047683716,
      "timestamp": "2025-11-12T17:25:23.290Z"
    }
  ],
  "categorization1": [
    {
      "trial": 1,
      "image": "computer.jpg",
      "response": "artificial",
      "rt": 4607.299999952316,
      "timestamp": "2025-11-12T17:15:01.787Z"
    },
    {
      "trial": 2,
      "image": "flower.jpg",
      "response": "natural",
      "rt": 1569.8999999761581,
      "timestamp": "2025-11-12T17:15:03.360Z"
    },
    {
      "trial": 3,
      "image": "building.jpg",
      "response": "artificial",
      "rt": 2829.2000000476837,
      "timestamp": "2025-11-12T17:15:06.192Z"
    },
    {
      "trial": 4,
      "image": "car.jpg",
      "response": "artificial",
      "rt": 630.8999999761581,
      "timestamp": "2025-11-12T17:15:06.825Z"
    },
    {
      "trial": 5,
      "image": "bird.jpg",
      "response": "natural",
      "rt": 622.3000000715256,
      "timestamp": "2025-11-12T17:15:07.450Z"
    },
    {
      "trial": 6,
      "image": "tree.jpg",
      "response": "natural",
      "rt": 831.5,
      "timestamp": "2025-11-12T17:15:08.284Z"
    },
    {
      "trial": 7,
      "image": "phone.jpg",
      "response": "artificial",
      "rt": 846.3000000715256,
      "timestamp": "2025-11-12T17:15:09.133Z"
    },
    {
      "trial": 8,
      "image": "cat.jpg",
      "response": "natural",
      "rt": 585.2999999523163,
      "timestamp": "2025-11-12T17:15:09.722Z"
    },
    {
      "trial": 9,
      "image": "mountain.jpg",
      "response": "natural",
      "rt": 620.5,
      "timestamp": "2025-11-12T17:15:10.346Z"
    },
    {
      "trial": 10,
      "image": "chair.jpg",
      "response": "artificial",
      "rt": 669.6000000238419,
      "timestamp": "2025-11-12T17:15:11.018Z"
    }
  ],
  "categorization2": [
    {
      "trial": 1,
      "image": "flower.jpg",
      "response": "natural",
      "rt": 4232.600000023842,
      "timestamp": "2025-11-12T17:20:16.458Z"
    },
    {
      "trial": 2,
      "image": "phone.jpg",
      "response": "artificial",
      "rt": 758.5,
      "timestamp": "2025-11-12T17:20:17.219Z"
    },
    {
      "trial": 3,
      "image": "tree.jpg",
      "response": "natural",
      "rt": 674.5,
      "timestamp": "2025-11-12T17:20:17.895Z"
    },
    {
      "trial": 4,
      "image": "cat.jpg",
      "response": "natural",
      "rt": 717.6999999284744,
      "timestamp": "2025-11-12T17:20:18.615Z"
    },
    {
      "trial": 5,
      "image": "mountain.jpg",
      "response": "natural",
      "rt": 702.8999999761581,
      "timestamp": "2025-11-12T17:20:19.320Z"
    },
    {
      "trial": 6,
      "image": "bird.jpg",
      "response": "natural",
      "rt": 669.6999999284744,
      "timestamp": "2025-11-12T17:20:19.991Z"
    },
    {
      "trial": 7,
      "image": "building.jpg",
      "response": "artificial",
      "rt": 546.7999999523163,
      "timestamp": "2025-11-12T17:20:20.540Z"
    },
    {
      "trial": 8,
      "image": "computer.jpg",
      "response": "artificial",
      "rt": 531.8000000715256,
      "timestamp": "2025-11-12T17:20:21.074Z"
    },
    {
      "trial": 9,
      "image": "chair.jpg",
      "response": "artificial",
      "rt": 602.6000000238419,
      "timestamp": "2025-11-12T17:20:21.678Z"
    },
    {
      "trial": 10,
      "image": "car.jpg",
      "response": "artificial",
      "rt": 642.2000000476837,
      "timestamp": "2025-11-12T17:20:22.322Z"
    }
  ]
}