{
  "participantId": "P1763050296093",
  "condition": "C1",
  "timestamp": "2025-11-13T16:17:23.653Z",
  "questionnaire": {
    "age": 20,
    "gender": "F",
    "musicHabit": 4,
    "fatigue": 4,
    "stress": 5,
    "isHabitue": false,
    "condition": "C1",
    "timestamp": "2025-11-13T16:11:36.198Z"
  },
  "pvtBlock1": [
    {
      "trial": 1,
      "rt": 440.34254518204114,
      "timestamp": "2025-11-13T16:12:25.985Z"
    },
    {
      "trial": 2,
      "rt": 488.01066727027774,
      "timestamp": "2025-11-13T16:12:25.985Z"
    },
    {
      "trial": 3,
      "rt": 487.65367758190644,
      "timestamp": "2025-11-13T16:12:25.985Z"
    },
    {
      "trial": 4,
      "rt": 366.3323123054562,
      "timestamp": "2025-11-13T16:12:25.985Z"
    },
    {
      "trial": 5,
      "rt": 315.06988182539897,
      "timestamp": "2025-11-13T16:12:25.985Z"
    },
    {
      "trial": 6,
      "rt": 212.63277154869883,
      "timestamp": "2025-11-13T16:12:25.985Z"
    },
    {
      "trial": 7,
      "rt": 244.9119558531445,
      "timestamp": "2025-11-13T16:12:25.985Z"
    },
    {
      "trial": 8,
      "rt": 386.6097820448326,
      "timestamp": "2025-11-13T16:12:25.985Z"
    },
    {
      "trial": 9,
      "rt": 382.29451666711293,
      "timestamp": "2025-11-13T16:12:25.985Z"
    },
    {
      "trial": 10,
      "rt": 269.87605976098575,
      "timestamp": "2025-11-13T16:12:25.985Z"
    }
  ],
  "pvtBlock2": [],
  "categorization1": [
    {
      "trial": 1,
      "image": "image-32.webp",
      "response": "interieur",
      "rt": 5122.899999976158,
      "timestamp": "2025-11-13T16:11:45.195Z"
    },
    {
      "trial": 2,
      "image": "image-40.webp",
      "response": "exterieur",
      "rt": 806.6000000238419,
      "timestamp": "2025-11-13T16:11:46.003Z"
    },
    {
      "trial": 3,
      "image": "image-28.webp",
      "response": "interieur",
      "rt": 941.5999999046326,
      "timestamp": "2025-11-13T16:11:46.947Z"
    },
    {
      "trial": 4,
      "image": "image-30.webp",
      "response": "exterieur",
      "rt": 552.7000000476837,
      "timestamp": "2025-11-13T16:11:47.503Z"
    },
    {
      "trial": 5,
      "image": "image-03.webp",
      "response": "interieur",
      "rt": 2002.7999999523163,
      "timestamp": "2025-11-13T16:11:49.508Z"
    },
    {
      "trial": 6,
      "image": "image-14.webp",
      "response": "interieur",
      "rt": 350.2000000476837,
      "timestamp": "2025-11-13T16:11:49.860Z"
    },
    {
      "trial": 7,
      "image": "image-17.webp",
      "response": "interieur",
      "rt": 205.30000007152557,
      "timestamp": "2025-11-13T16:11:50.069Z"
    },
    {
      "trial": 8,
      "image": "image-41.webp",
      "response": "interieur",
      "rt": 391.10000002384186,
      "timestamp": "2025-11-13T16:11:50.462Z"
    },
    {
      "trial": 9,
      "image": "image-31.webp",
      "response": "interieur",
      "rt": 168.60000002384186,
      "timestamp": "2025-11-13T16:11:50.633Z"
    },
    {
      "trial": 10,
      "image": "image-38.webp",
      "response": "interieur",
      "rt": 517.4000000953674,
      "timestamp": "2025-11-13T16:11:51.152Z"
    },
    {
      "trial": 11,
      "image": "image-09.webp",
      "response": "interieur",
      "rt": 28.600000023841858,
      "timestamp": "2025-11-13T16:11:51.183Z"
    },
    {
      "trial": 12,
      "image": "image-08.webp",
      "response": "interieur",
      "rt": 67.60000002384186,
      "timestamp": "2025-11-13T16:11:51.252Z"
    },
    {
      "trial": 13,
      "image": "image-35.webp",
      "response": "interieur",
      "rt": 184.20000004768372,
      "timestamp": "2025-11-13T16:11:51.439Z"
    },
    {
      "trial": 14,
      "image": "image-18.webp",
      "response": "interieur",
      "rt": 348.1999999284744,
      "timestamp": "2025-11-13T16:11:51.789Z"
    },
    {
      "trial": 15,
      "image": "image-16.webp",
      "response": "interieur",
      "rt": 339.2000000476837,
      "timestamp": "2025-11-13T16:11:52.131Z"
    },
    {
      "trial": 16,
      "image": "image-37.webp",
      "response": "interieur",
      "rt": 156.79999995231628,
      "timestamp": "2025-11-13T16:11:52.289Z"
    },
    {
      "trial": 17,
      "image": "image-22.webp",
      "response": "interieur",
      "rt": 189.20000004768372,
      "timestamp": "2025-11-13T16:11:52.480Z"
    },
    {
      "trial": 18,
      "image": "image-33.webp",
      "response": "interieur",
      "rt": 162.90000009536743,
      "timestamp": "2025-11-13T16:11:52.645Z"
    },
    {
      "trial": 19,
      "image": "image-42.webp",
      "response": "interieur",
      "rt": 160.20000004768372,
      "timestamp": "2025-11-13T16:11:52.808Z"
    },
    {
      "trial": 20,
      "image": "image-27.webp",
      "response": "interieur",
      "rt": 161.5,
      "timestamp": "2025-11-13T16:11:52.972Z"
    },
    {
      "trial": 21,
      "image": "image-24.webp",
      "response": "interieur",
      "rt": 156.60000002384186,
      "timestamp": "2025-11-13T16:11:53.130Z"
    }
  ],
  "categorization2": [
    {
      "trial": 1,
      "image": "image-36.webp",
      "response": "interieur",
      "rt": 750.5,
      "timestamp": "2025-11-13T16:17:17.667Z"
    },
    {
      "trial": 2,
      "image": "image-19.webp",
      "response": "interieur",
      "rt": 231.79999995231628,
      "timestamp": "2025-11-13T16:17:17.902Z"
    },
    {
      "trial": 3,
      "image": "image-26.webp",
      "response": "interieur",
      "rt": 165.30000007152557,
      "timestamp": "2025-11-13T16:17:18.070Z"
    },
    {
      "trial": 4,
      "image": "image-06.webp",
      "response": "interieur",
      "rt": 139.10000002384186,
      "timestamp": "2025-11-13T16:17:18.217Z"
    },
    {
      "trial": 5,
      "image": "image-20.webp",
      "response": "interieur",
      "rt": 279.1999999284744,
      "timestamp": "2025-11-13T16:17:18.498Z"
    },
    {
      "trial": 6,
      "image": "image-15.webp",
      "response": "interieur",
      "rt": 153.5,
      "timestamp": "2025-11-13T16:17:18.654Z"
    },
    {
      "trial": 7,
      "image": "image-05.webp",
      "response": "interieur",
      "rt": 176.39999997615814,
      "timestamp": "2025-11-13T16:17:18.832Z"
    },
    {
      "trial": 8,
      "image": "image-23.webp",
      "response": "interieur",
      "rt": 149.80000007152557,
      "timestamp": "2025-11-13T16:17:18.984Z"
    },
    {
      "trial": 9,
      "image": "image-10.webp",
      "response": "interieur",
      "rt": 154.5,
      "timestamp": "2025-11-13T16:17:19.142Z"
    },
    {
      "trial": 10,
      "image": "image-04.webp",
      "response": "interieur",
      "rt": 139.19999992847443,
      "timestamp": "2025-11-13T16:17:19.285Z"
    },
    {
      "trial": 11,
      "image": "image-11.webp",
      "response": "interieur",
      "rt": 130.89999997615814,
      "timestamp": "2025-11-13T16:17:19.419Z"
    },
    {
      "trial": 12,
      "image": "image-02.webp",
      "response": "interieur",
      "rt": 149.10000002384186,
      "timestamp": "2025-11-13T16:17:19.570Z"
    },
    {
      "trial": 13,
      "image": "image-07.webp",
      "response": "interieur",
      "rt": 158.89999997615814,
      "timestamp": "2025-11-13T16:17:19.732Z"
    },
    {
      "trial": 14,
      "image": "image-01.webp",
      "response": "interieur",
      "rt": 175.60000002384186,
      "timestamp": "2025-11-13T16:17:19.910Z"
    },
    {
      "trial": 15,
      "image": "image-39.webp",
      "response": "interieur",
      "rt": 171.79999995231628,
      "timestamp": "2025-11-13T16:17:20.084Z"
    },
    {
      "trial": 16,
      "image": "image-21.webp",
      "response": "interieur",
      "rt": 160.5,
      "timestamp": "2025-11-13T16:17:20.247Z"
    },
    {
      "trial": 17,
      "image": "image-34.webp",
      "response": "interieur",
      "rt": 166.80000007152557,
      "timestamp": "2025-11-13T16:17:20.415Z"
    },
    {
      "trial": 18,
      "image": "image-13.webp",
      "response": "interieur",
      "rt": 159.89999997615814,
      "timestamp": "2025-11-13T16:17:20.576Z"
    },
    {
      "trial": 19,
      "image": "image-25.webp",
      "response": "interieur",
      "rt": 156.10000002384186,
      "timestamp": "2025-11-13T16:17:20.734Z"
    },
    {
      "trial": 20,
      "image": "image-12.webp",
      "response": "interieur",
      "rt": 163.5,
      "timestamp": "2025-11-13T16:17:20.899Z"
    },
    {
      "trial": 21,
      "image": "image-29.webp",
      "response": "interieur",
      "rt": 171.80000007152557,
      "timestamp": "2025-11-13T16:17:21.072Z"
    }
  ]
}